Folder: stream-jyc/example

File: supycap.mpt
EC-Lab ASCII FILE
Nb header lines : 57

Constant Current

Run on channel : 4 (SN 2072)
User :
Electrode connection : standard
Ewe ctrl range : min = -10.00 V, max = 10.00 V
Ewe,I filtering : <None>
Safety Limits :
	Do not start on E overload
Channel : Floating
Acquisition started on : 03/22/2019 14:52:49
Saved on :
	File : 20190322_M20_LE_3rd_02_CstC.mpr
	Directory : C:\Users\U HYeok Choi\Documents\EC-Lab\Data\JYC\2019\0322 M20_LE 3rd\
	Host : 192.109.209.120
Device : VSP-300 (SN 0162)
Address : 192.109.209.128
EC-Lab for windows v11.20 (software)
Internet server v11.20 (firmware)
Command interpretor v11.20 (firmware)
Electrode material : Au/Pd
Initial state :
Electrolyte : NaCl (0.2M)
Comments : Fe(CN)63-/Fe(CN)64- 5.10-3 M
Cable : standard
Reference electrode : SCE Saturated Calomel Electrode (0.241 V)
Electrode surface area : 0.001 cm2
Characteristic mass : 0.001 g
Equivalent Weight : 0.000 g/eq.
Density : 0.000 g/cm3
Cycle Definition : Charge/Discharge alternance
Ns                  0                   1
tR (h:m:s)          0:00:0.0000         0:00:0.0000
dER/dt (mV/h)       2.0                 2.0
dER (mV)            0.00                0.00
dtR (s)             1.0000              1.0000
Is                  120.000             -120.000
unit Is             uA                  uA
vs.                 <None>              <None>
ts (h:m:s)          7:07:0.0000         7:07:0.0000
EM (V)              1.000               0.000
dQM                 854.000             854.000
unit dQM            uA.h                uA.h
record              <Ewe>               <Ewe>
dEs (mV)            0.00                0.00
dts (s)             0.1000              0.1000
E range min (V)     -10.000             -10.000
E range max (V)     10.000              10.000
I Range             10 mA               10 mA
Bandwidth           8                   8
goto Ns'            0                   0
nc cycles           3                   3

mode	ox/red	error	control changes	Ns changes	counter inc.	time/s	control/mA	<Ewe>/V	I/mA	dq/mA.h	dQ/mA.h	(Q-Qo)/mA.h	Q charge/discharge/mA.h	half cycle	Energy charge/W.h	Energy discharge/W.h	Capacitance charge/uF	Capacitance discharge/uF	Q discharge/mA.h	Q charge/mA.h	Capacity/mA.h	Efficiency/%	cycle number	P/W
1	1	0	1	0	0	1019.88	0.12	0.0311824	0.124456	9.24318e-09	1.44388e-08	1.44388e-08	9.24318e-09	0	2.88225e-13	0.000000000000000E+000	0.000000000000000E+000	0.000000000000000E+000	0.000000000000000E+000	9.24318e-09	9.24318e-09	0.0000000E+000	0.000000000000000E+000	3.88085e-06
1	1	0	1	0	0	1029.08	0.12	0.263821	0.124113	3.44682e-06	0.000317048	0.000317048	0.000317043	0	5.09114e-08	0.000000000000000E+000	4906.14	0.000000000000000E+000	0.000000000000000E+000	0.000317043	0.000317043	0.0000000E+000	0.000000000000000E+000	3.27435e-05
1	1	0	1	0	0	1038.28	0.12	0.454452	0.124609	3.4478e-06	0.000634275	0.000634275	0.00063427	0	1.65106e-07	0.000000000000000E+000	5394.6	0.000000000000000E+000	0.000000000000000E+000	0.00063427	0.00063427	0.0000000E+000	0.000000000000000E+000	5.66288e-05
1	1	0	1	0	0	1047.48	0.12	0.646186	0.124456	3.44984e-06	0.000951567	0.000951567	0.000951562	0	3.40112e-07	0.000000000000000E+000	5570.09	0.000000000000000E+000	0.000000000000000E+000	0.000951562	0.000951562	0.0000000E+000	0.000000000000000E+000	8.04219e-05
1	1	0	1	0	0	1056.68	0.12	0.829065	0.12499	3.44961e-06	0.00126898	0.00126898	0.00126897	0	5.74981e-07	0.000000000000000E+000	5725.53	0.000000000000000E+000	0.000000000000000E+000	0.00126897	0.00126897	0.0000000E+000	0.000000000000000E+000	0.000103625
1	1	0	1	0	0	1065.88	0.12	0.983212	0.124304	3.44762e-06	0.00158636	0.00158636	0.00158636	0	8.64026e-07	0.000000000000000E+000	5998.64	0.000000000000000E+000	0.000000000000000E+000	0.00158636	0.00158636	0.0000000E+000	0.000000000000000E+000	0.000122217
1	0	0	0	0	0	1074.97	-0.12	0.791337	-0.116057	-3.20848e-06	-0.000253538	0.00137389	-0.000253538	1	9.04777e-07	-2.23774e-07	6051.33	4640.28	0.000253538	0.000000000000000E+000	0.000253538	0.0000000E+000	0.000000000000000E+000	-9.18399e-05
1	0	0	0	0	0	1084.17	-0.12	0.597627	-0.115255	-3.21088e-06	-0.000548818	0.00107861	-0.000548818	1	9.04777e-07	-4.28088e-07	6051.33	5060.7	0.000548818	0.000000000000000E+000	0.000548818	0.0000000E+000	0.000000000000000E+000	-6.88796e-05
1	0	0	0	0	0	1093.37	-0.12	0.420399	-0.115751	-3.20863e-06	-0.00084401	0.000783422	-0.00084401	1	9.04777e-07	-5.77675e-07	6051.33	5352.78	0.00084401	0.000000000000000E+000	0.00084401	0.0000000E+000	0.000000000000000E+000	-4.86618e-05
1	0	0	0	0	0	1102.57	-0.12	0.259157	-0.115217	-3.20789e-06	-0.00113919	0.000488237	-0.00113919	1	9.04777e-07	-6.77302e-07	6051.33	5626.58	0.00113919	0.000000000000000E+000	0.00113919	0.0000000E+000	0.000000000000000E+000	-2.98593e-05
1	0	0	0	0	0	1111.77	-0.12	0.105305	-0.115103	-3.21017e-06	-0.00143441	0.000193018	-0.00143441	1	9.04777e-07	-7.30869e-07	6051.33	5849.89	0.00143441	0.000000000000000E+000	0.00143441	0.0000000E+000	0.000000000000000E+000	-1.21208e-05
1	1	0	1	0	1	1120.85	0.12	0.0803342	0.123922	3.4462e-06	9.30972e-05	8.15039e-05	9.30972e-05	2	4.47496e-09	0.000000000000000E+000	4208.05	0.000000000000000E+000	0.000000000000000E+000	9.30972e-05	9.30972e-05	0.0000000E+000	1	9.95517e-06
1	1	0	1	0	1	1130.05	0.12	0.279176	0.124304	3.44974e-06	0.000410444	0.000398851	0.000410444	2	6.27128e-08	0.000000000000000E+000	5305.82	0.000000000000000E+000	0.000000000000000E+000	0.000410444	0.000410444	0.0000000E+000	1	3.47026e-05
1	1	0	1	0	1	1139.25	0.12	0.465315	0.124113	3.45169e-06	0.000727901	0.000716307	0.000727901	2	1.81089e-07	0.000000000000000E+000	5639.9	0.000000000000000E+000	0.000000000000000E+000	0.000727901	0.000727901	0.0000000E+000	1	5.77515e-05
1	1	0	1	0	1	1148.45	0.12	0.652739	0.124036	3.45098e-06	0.00104543	0.00103384	0.00104543	2	3.58999e-07	0.000000000000000E+000	5771.86	0.000000000000000E+000	0.000000000000000E+000	0.00104543	0.00104543	0.0000000E+000	1	8.09634e-05
1	1	0	1	0	1	1157.65	0.12	0.830953	0.124265	3.45097e-06	0.00136278	0.00135119	0.00136278	2	5.95144e-07	0.000000000000000E+000	5909	0.000000000000000E+000	0.000000000000000E+000	0.00136278	0.00136278	0.0000000E+000	1	0.000103259
1	1	0	1	0	1	1166.85	0.12	0.983032	0.124533	3.44957e-06	0.00168032	0.00166873	0.00168032	2	8.8447e-07	0.000000000000000E+000	6157.89	0.000000000000000E+000	0.000000000000000E+000	0.00168032	0.00168032	0.0000000E+000	1	0.000122419
1	0	0	0	0	1	1175.94	-0.12	0.791254	-0.114263	-3.21064e-06	-0.000253496	0.00145653	-0.000253496	3	9.25441e-07	-2.23734e-07	6206.34	4636.97	0.000253496	0.000000000000000E+000	0.000253496	0.0000000E+000	1	-9.0411e-05
1	0	0	0	0	1	1185.14	-0.12	0.597455	-0.1164	-3.20988e-06	-0.00054869	0.00116134	-0.00054869	3	9.25441e-07	-4.27951e-07	6206.34	5056.97	0.00054869	0.000000000000000E+000	0.00054869	0.0000000E+000	1	-6.95439e-05
1	0	0	0	0	1	1194.34	-0.12	0.420163	-0.115675	-3.20691e-06	-0.000843847	0.000866178	-0.000843847	3	9.25441e-07	-5.77461e-07	6206.34	5349.28	0.000843847	0.000000000000000E+000	0.000843847	0.0000000E+000	1	-4.86023e-05
1	0	0	0	0	1	1203.54	-0.12	0.258775	-0.115179	-3.20751e-06	-0.00113896	0.000571067	-0.00113896	3	9.25441e-07	-6.76981e-07	6206.34	5622.28	0.00113896	0.000000000000000E+000	0.00113896	0.0000000E+000	1	-2.98055e-05
1	0	0	0	0	1	1212.74	-0.12	0.104589	-0.114912	-3.20986e-06	-0.00143423	0.000275795	-0.00143423	3	9.25441e-07	-7.30394e-07	6206.34	5844.25	0.00143423	0.000000000000000E+000	0.00143423	0.0000000E+000	1	-1.20185e-05
1	1	0	1	0	0	1221.75	0.12	0.0802787	0.123731	3.45108e-06	9.32053e-05	0.000166469	9.32053e-05	4	4.47697e-09	0.000000000000000E+000	4216.28	0.000000000000000E+000	0.000000000000000E+000	9.32053e-05	9.32053e-05	0.0000000E+000	2	9.93297e-06
1	1	0	1	0	0	1230.95	0.12	0.279202	0.124685	3.45306e-06	0.00041068	0.000483943	0.00041068	4	6.27162e-08	0.000000000000000E+000	5308.52	0.000000000000000E+000	0.000000000000000E+000	0.00041068	0.00041068	0.0000000E+000	2	3.48123e-05
1	1	0	1	0	0	1240.15	0.12	0.465629	0.123731	3.45106e-06	0.000728172	0.000801435	0.000728172	4	1.8116e-07	0.000000000000000E+000	5638.28	0.000000000000000E+000	0.000000000000000E+000	0.000728172	0.000728172	0.0000000E+000	2	5.76128e-05
1	1	0	1	0	0	1249.35	0.12	0.653213	0.124494	3.45449e-06	0.00104569	0.00111895	0.00104569	4	3.59192e-07	0.000000000000000E+000	5769.19	0.000000000000000E+000	0.000000000000000E+000	0.00104569	0.00104569	0.0000000E+000	2	8.13214e-05
1	1	0	1	0	0	1258.55	0.12	0.831668	0.124189	3.45072e-06	0.00136332	0.00143658	0.00136332	4	5.95731e-07	0.000000000000000E+000	5906.29	0.000000000000000E+000	0.000000000000000E+000	0.00136332	0.00136332	0.0000000E+000	2	0.000103284
1	1	0	1	0	0	1267.75	0.12	0.984058	0.124075	3.44884e-06	0.0016808	0.00175406	0.0016808	4	8.85262e-07	0.000000000000000E+000	6153.25	0.000000000000000E+000	0.000000000000000E+000	0.0016808	0.0016808	0.0000000E+000	2	0.000122097
1	0	0	0	0	0	1276.76	-0.12	0.791262	-0.114606	-3.20703e-06	-0.000253447	0.00153881	-0.000253447	5	9.23172e-07	-2.23698e-07	6193.53	4637.12	0.000253447	0.000000000000000E+000	0.000253447	0.0000000E+000	2	-9.06837e-05
1	0	0	0	0	0	1285.96	-0.12	0.597428	-0.115141	-3.20718e-06	-0.000548533	0.00124372	-0.000548533	5	9.23172e-07	-4.27835e-07	6193.53	5055.65	0.000548533	0.000000000000000E+000	0.000548533	0.0000000E+000	2	-6.87883e-05
1	0	0	0	0	0	1295.16	-0.12	0.420045	-0.115255	-3.20789e-06	-0.000843761	0.000948493	-0.000843761	5	9.23172e-07	-5.77358e-07	6193.53	5347.97	0.000843761	0.000000000000000E+000	0.000843761	0.0000000E+000	2	-4.84124e-05
1	0	0	0	0	0	1304.36	-0.12	0.258411	-0.115751	-3.21012e-06	-0.00113898	0.000653274	-0.00113898	5	9.23172e-07	-6.76846e-07	6193.53	5619.86	0.00113898	0.000000000000000E+000	0.00113898	0.0000000E+000	2	-2.99115e-05
1	0	0	0	0	0	1313.56	-0.12	0.103989	-0.116019	-3.21066e-06	-0.00143427	0.000357981	-0.00143427	5	9.23172e-07	-7.30113e-07	6193.53	5840.69	0.00143427	0.000000000000000E+000	0.00143427	0.0000000E+000	2	-1.20646e-05
1	1	0	1	0	1	1322.62	0.12	0.0825812	0.123693	3.44897e-06	9.65759e-05	0.000253448	9.65759e-05	6	4.75598e-09	0.000000000000000E+000	4244.43	0.000000000000000E+000	0.000000000000000E+000	9.65759e-05	9.65759e-05	0.0000000E+000	3	1.02147e-05
1	1	0	1	0	1	1331.82	0.12	0.281344	0.1248	3.4503e-06	0.000413825	0.000570697	0.000413825	6	6.36322e-08	0.000000000000000E+000	5307.8	0.000000000000000E+000	0.000000000000000E+000	0.000413825	0.000413825	0.0000000E+000	3	3.51116e-05
1	1	0	1	0	1	1341.02	0.12	0.468164	0.124151	3.44714e-06	0.000731181	0.000888054	0.000731181	6	1.82779e-07	0.000000000000000E+000	5630.54	0.000000000000000E+000	0.000000000000000E+000	0.000731181	0.000731181	0.0000000E+000	3	5.81229e-05
1	1	0	1	0	1	1350.22	0.12	0.65588	0.124036	3.4488e-06	0.00104851	0.00120538	0.00104851	6	3.6153e-07	0.000000000000000E+000	5760.95	0.000000000000000E+000	0.000000000000000E+000	0.00104851	0.00104851	0.0000000E+000	3	8.13529e-05
1	1	0	1	0	1	1359.42	0.12	0.83437	0.124227	3.44811e-06	0.00136578	0.00152265	0.00136578	6	5.98651e-07	0.000000000000000E+000	5897.55	0.000000000000000E+000	0.000000000000000E+000	0.00136578	0.00136578	0.0000000E+000	3	0.000103651
1	1	0	1	0	1	1368.62	0.12	0.986688	0.123769	3.44985e-06	0.00168296	0.00183983	0.00168296	6	8.88761e-07	0.000000000000000E+000	6144.55	0.000000000000000E+000	0.000000000000000E+000	0.00168296	0.00168296	0.0000000E+000	3	0.000122122
1	0	0	0	0	1	1377.63	-0.12	0.786807	-0.115713	-3.2096e-06	-0.000260134	0.00161121	-0.000260134	7	9.20084e-07	-2.29008e-07	6177.12	4652.77	0.000260134	0.000000000000000E+000	0.000260134	0.0000000E+000	3	-9.1044e-05
1	0	0	0	0	1	1386.83	-0.12	0.593082	-0.11579	-3.21185e-06	-0.000555513	0.00131583	-0.000555513	7	9.20084e-07	-4.3205e-07	6177.12	5062.91	0.000555513	0.000000000000000E+000	0.000555513	0.0000000E+000	3	-6.86727e-05
1	0	0	0	0	1	1396.03	-0.12	0.415879	-0.115026	-3.20718e-06	-0.000850843	0.0010205	-0.000850843	7	9.20084e-07	-5.80372e-07	6177.12	5353.06	0.000850843	0.000000000000000E+000	0.000850843	0.0000000E+000	3	-4.7837e-05
1	0	0	0	0	1	1405.23	-0.12	0.254353	-0.115942	-3.20996e-06	-0.00114612	0.000725227	-0.00114612	7	9.20084e-07	-6.78674e-07	6177.12	5623.36	0.00114612	0.000000000000000E+000	0.00114612	0.0000000E+000	3	-2.94903e-05
1	0	0	0	0	1	1414.43	-0.12	0.0997659	-0.115561	-3.20883e-06	-0.00144147	0.000429876	-0.00144147	7	9.20084e-07	-7.30724e-07	6177.12	5841.71	0.00144147	0.000000000000000E+000	0.00144147	0.0000000E+000	3	-1.1529e-05
1	0	0	0	0	1	1420.44	-0.12	0.000124789	-0.115713	-1.92796e-07	-0.00163425	0.000237093	-0.00163425	7	9.20084e-07	-7.40204e-07	6177.12	5955.02	0.00163425	0.000000000000000E+000	0.00163425	95.321	3	-1.44397e-08